{
  "resourceType": "Bundle",
  "id": "4a3f0e1f-3872-4717-b62a-5fe326b14682",
  "identifier": {
    "value": "4a3f0e1f-3872-4717-b62a-5fe326b14682"
  },
  "type": "transaction",
  "entry": [
    {
      "fullUrl": "urn:uuid:17eb99ea8d0-7bdc8d4376b3567137d76c91d45c81e18a079b4759475805f560",
      "resource": {
        "resourceType": "Observation",
        "meta": {
          "versionId": "1",
          "lastUpdated": "2022-02-02T09:48:09.941+01:00"
        },
        "contained": [
          {
            "resourceType": "Patient",
            "id": "embedded-patient",
            "meta": {
              "profile": [
                "https://fhir.miracum.org/uc2/StructureDefinition/patient"
              ]
            },
            "identifier": [
              {
                "use": "usual",
                "system": "https://fhir.diz.uni-marburg.de/NamingSystem/identifier/PatientId",
                "value": "1"
              }
            ],
            "name": [
              {
                "use": "official",
                "family": "Lustig",
                "given": [
                  "Peter",
                  "Fritz Willi"
                ]
              }
            ],
            "gender": "male",
            "birthDate": "1937-10-27"
          }
        ],
        "identifier": [
          {
            "use": "usual",
            "system": "https://fhir.diz.uni-marburg.de/NamingSystem/identifier/LufuSurrogateObservationId",
            "value": "17eb99ea8d0-7bdc8d4376b3567137d76c91d45c81e18a079b4759475805f560"
          }
        ],
        "status": "final",
        "code": {
          "coding": [
            {
              "system": "http://hl7.org/fhir/administrative-gender",
              "code": "male"
            }
          ]
        },
        "subject": {
          "reference": "#embedded-patient"
        },
        "effectiveDateTime": "1970-01-19T01:00:00+01:00"
      }
    },
    {
      "fullUrl": "urn:uuid:4a3f0e1f-3872-4717-b62a-5fe326b14682",
      "resource": {
        "resourceType": "DiagnosticReport",
        "id": "4a3f0e1f-3872-4717-b62a-5fe326b14682",
        "meta": {
          "versionId": "1",
          "lastUpdated": "2022-02-02T09:48:09.941+01:00",
          "profile": [
            "https://fhir.miracum.org/uc2/StructureDefinition/lufu-befund"
          ]
        },
        "contained": [
          {
            "resourceType": "Patient",
            "id": "embedded-patient",
            "meta": {
              "profile": [
                "https://fhir.miracum.org/uc2/StructureDefinition/patient"
              ]
            },
            "identifier": [
              {
                "use": "usual",
                "system": "https://fhir.diz.uni-marburg.de/NamingSystem/identifier/PatientId",
                "value": "1"
              }
            ],
            "name": [
              {
                "use": "official",
                "family": "Lustig",
                "given": [
                  "Peter",
                  "Fritz Willi"
                ]
              }
            ],
            "gender": "male",
            "birthDate": "1937-10-27"
          },
          {
            "resourceType": "Organization",
            "id": "embedded-producer",
            "identifier": [
              {
                "value": "FHIR-LUFU"
              }
            ]
          }
        ],
        "identifier": [
          {
            "use": "usual",
            "system": "https://fhir.diz.uni-marburg.de/NamingSystem/identifier/LufuReportId",
            "value": "4a3f0e1f-3872-4717-b62a-5fe326b14682"
          }
        ],
        "status": "final",
        "category": [
          {
            "coding": [
              {
                "system": "http://terminology.hl7.org/CodeSystem/v2-0074",
                "code": "PF",
                "display": "Pulmonary Function"
              }
            ]
          }
        ],
        "code": {
          "coding": [
            {
              "system": "http://snomed.info/sct",
              "code": "23426006",
              "display": "Measurement of respiratory function (procedure)"
            }
          ]
        },
        "subject": {
          "reference": "#embedded-patient"
        },
        "effectiveDateTime": "1970-01-19T01:00:00+01:00",
        "performer": [
          {
            "reference": "#embedded-producer"
          }
        ],
        "result": [
          {
            "reference": "urn:uuid:17eb99ea8d3-d4297ad53daa961038b1e7dde167260bf7070582514c8a5e288c"
          },
          {
            "reference": "urn:uuid:17eb99ea8d0-7bdc8d4376b3567137d76c91d45c81e18a079b4759475805f560"
          },
          {
            "reference": "urn:uuid:17eb99ea8d1-6b46d6f80d40ad9a42e193a289b3cadd7352ae013187924d8ce9"
          },
          {
            "reference": "urn:uuid:17eb99ea8d1-539e78fbe149766fef6fad28c0870d0191baa93cf3cd0013faf3"
          }
        ]
      }
    },
    {
      "fullUrl": "urn:uuid:17eb99ea8d1-6b46d6f80d40ad9a42e193a289b3cadd7352ae013187924d8ce9",
      "resource": {
        "resourceType": "Observation",
        "meta": {
          "versionId": "1",
          "lastUpdated": "2022-02-02T09:48:09.941+01:00",
          "profile": [
            "http://hl7.org/fhir/StructureDefinition/bodyheight"
          ]
        },
        "contained": [
          {
            "resourceType": "Patient",
            "id": "embedded-patient",
            "meta": {
              "profile": [
                "https://fhir.miracum.org/uc2/StructureDefinition/patient"
              ]
            },
            "identifier": [
              {
                "use": "usual",
                "system": "https://fhir.diz.uni-marburg.de/NamingSystem/identifier/PatientId",
                "value": "1"
              }
            ],
            "name": [
              {
                "use": "official",
                "family": "Lustig",
                "given": [
                  "Peter",
                  "Fritz Willi"
                ]
              }
            ],
            "gender": "male",
            "birthDate": "1937-10-27"
          }
        ],
        "identifier": [
          {
            "use": "usual",
            "system": "https://fhir.diz.uni-marburg.de/NamingSystem/identifier/LufuSurrogateObservationId",
            "value": "17eb99ea8d1-6b46d6f80d40ad9a42e193a289b3cadd7352ae013187924d8ce9"
          }
        ],
        "status": "final",
        "code": {
          "coding": [
            {
              "system": "http://loinc.org",
              "version": "2.70",
              "code": "8302-2"
            }
          ]
        },
        "subject": {
          "reference": "#embedded-patient"
        },
        "effectiveDateTime": "1970-01-19T01:00:00+01:00",
        "valueQuantity": {
          "value": 18200,
          "unit": "cm",
          "system": "http://unitsofmeasure.org",
          "code": "cm"
        }
      }
    },
    {
      "fullUrl": "urn:uuid:17eb99ea8d1-539e78fbe149766fef6fad28c0870d0191baa93cf3cd0013faf3",
      "resource": {
        "resourceType": "Observation",
        "meta": {
          "versionId": "1",
          "lastUpdated": "2022-02-02T09:48:09.941+01:00",
          "profile": [
            "http://hl7.org/fhir/StructureDefinition/bodyweight"
          ]
        },
        "contained": [
          {
            "resourceType": "Patient",
            "id": "embedded-patient",
            "meta": {
              "profile": [
                "https://fhir.miracum.org/uc2/StructureDefinition/patient"
              ]
            },
            "identifier": [
              {
                "use": "usual",
                "system": "https://fhir.diz.uni-marburg.de/NamingSystem/identifier/PatientId",
                "value": "1"
              }
            ],
            "name": [
              {
                "use": "official",
                "family": "Lustig",
                "given": [
                  "Peter",
                  "Fritz Willi"
                ]
              }
            ],
            "gender": "male",
            "birthDate": "1937-10-27"
          }
        ],
        "identifier": [
          {
            "use": "usual",
            "system": "https://fhir.diz.uni-marburg.de/NamingSystem/identifier/LufuSurrogateObservationId",
            "value": "17eb99ea8d1-539e78fbe149766fef6fad28c0870d0191baa93cf3cd0013faf3"
          }
        ],
        "status": "final",
        "code": {
          "coding": [
            {
              "system": "http://loinc.org",
              "version": "2.70",
              "code": "29463-7"
            }
          ]
        },
        "subject": {
          "reference": "#embedded-patient"
        },
        "effectiveDateTime": "1970-01-19T01:00:00+01:00",
        "valueQuantity": {
          "value": 85,
          "unit": "kg",
          "system": "http://unitsofmeasure.org",
          "code": "kg"
        }
      }
    },
    {
      "fullUrl": "urn:uuid:17eb99ea8d3-d4297ad53daa961038b1e7dde167260bf7070582514c8a5e288c",
      "resource": {
        "resourceType": "Observation",
        "meta": {
          "versionId": "1",
          "lastUpdated": "2022-02-02T09:48:09.941+01:00",
          "profile": [
            "https://fhir.miracum.org/uc2/StructureDefinition/lufu-observation",
            "https://fhir.miracum.org/uc2/StructureDefinition/spiro"
          ]
        },
        "text": {
          "status": "additional",
          "div": "<div xmlns=\"http://www.w3.org/1999/xhtml\">Spirometry panel Test</div>"
        },
        "contained": [
          {
            "resourceType": "Patient",
            "id": "embedded-patient",
            "meta": {
              "profile": [
                "https://fhir.miracum.org/uc2/StructureDefinition/patient"
              ]
            },
            "identifier": [
              {
                "use": "usual",
                "system": "https://fhir.diz.uni-marburg.de/NamingSystem/identifier/PatientId",
                "value": "1"
              }
            ],
            "name": [
              {
                "use": "official",
                "family": "Lustig",
                "given": [
                  "Peter",
                  "Fritz Willi"
                ]
              }
            ],
            "gender": "male",
            "birthDate": "1937-10-27"
          }
        ],
        "identifier": [
          {
            "use": "usual",
            "system": "https://fhir.diz.uni-marburg.de/NamingSystem/identifier/LufuSurrogateObservationId",
            "value": "17eb99ea8d3-d4297ad53daa961038b1e7dde167260bf7070582514c8a5e288c"
          }
        ],
        "status": "final",
        "category": [
          {
            "coding": [
              {
                "system": "http://terminology.hl7.org/CodeSystem/observation-category",
                "code": "procedure",
                "display": "Procedure"
              }
            ]
          }
        ],
        "code": {
          "coding": [
            {
              "system": "http://loinc.org",
              "code": "81459-0",
              "display": "Spirometry panel"
            }
          ]
        },
        "subject": {
          "reference": "#embedded-patient"
        },
        "effectivePeriod": {
          "start": "1970-01-19T14:01:05+01:00",
          "end": "1970-01-19T14:01:16+01:00"
        },
        "component": [
          {
            "code": {
              "coding": [
                {
                  "system": "http://loinc.org",
                  "code": "19855-6",
                  "display": "Inspiratory capacity measured/predicted by Spirometry"
                },
                {
                  "system": "https://fhir.diz.uni-marburg.de/ValueSet/lufu/ObservationCodes",
                  "code": "IC %PRED|Test"
                }
              ]
            },
            "valueQuantity": {
              "value": 2.8,
              "unit": "Percent",
              "system": "http://unitsofmeasure.org",
              "code": "%"
            },
            "interpretation": [
              {
                "coding": [
                  {
                    "system": "http://terminology.hl7.org/CodeSystem/v3-ObservationInterpretation",
                    "code": "L",
                    "display": "Low"
                  }
                ]
              }
            ],
            "referenceRange": [
              {
                "low": {
                  "value": 3.1003,
                  "unit": "Percent",
                  "system": "http://unitsofmeasure.org",
                  "code": "%"
                },
                "high": {
                  "value": 4.2311,
                  "unit": "Percent",
                  "system": "http://unitsofmeasure.org",
                  "code": "%"
                }
              }
            ]
          },
          {
            "code": {
              "coding": [
                {
                  "system": "http://loinc.org",
                  "code": "19868-9",
                  "display": "Forced vital capacity [Volume] Respiratory system by Spirometry"
                },
                {
                  "system": "https://fhir.diz.uni-marburg.de/ValueSet/lufu/ObservationCodes",
                  "code": "FVC|Test"
                }
              ]
            },
            "valueQuantity": {
              "value": 2.8,
              "unit": "Liters",
              "system": "http://unitsofmeasure.org",
              "code": "L"
            },
            "interpretation": [
              {
                "coding": [
                  {
                    "system": "http://terminology.hl7.org/CodeSystem/v3-ObservationInterpretation",
                    "code": "L",
                    "display": "Low"
                  }
                ]
              }
            ],
            "referenceRange": [
              {
                "low": {
                  "value": 3.1003,
                  "unit": "Liters",
                  "system": "http://unitsofmeasure.org",
                  "code": "L"
                },
                "high": {
                  "value": 4.2311,
                  "unit": "Liters",
                  "system": "http://unitsofmeasure.org",
                  "code": "L"
                }
              }
            ]
          },
          {
            "code": {
              "coding": [
                {
                  "system": "http://loinc.org",
                  "code": "20150-9",
                  "display": "FEV1"
                },
                {
                  "system": "https://fhir.diz.uni-marburg.de/ValueSet/lufu/ObservationCodes",
                  "code": "FEV 1|Test"
                }
              ]
            },
            "valueQuantity": {
              "value": 2.8,
              "unit": "Liters",
              "system": "http://unitsofmeasure.org",
              "code": "L"
            },
            "interpretation": [
              {
                "coding": [
                  {
                    "system": "http://terminology.hl7.org/CodeSystem/v3-ObservationInterpretation",
                    "code": "L",
                    "display": "Low"
                  }
                ]
              }
            ],
            "referenceRange": [
              {
                "low": {
                  "value": 3.1003,
                  "unit": "Liters",
                  "system": "http://unitsofmeasure.org",
                  "code": "L"
                },
                "high": {
                  "value": 4.2311,
                  "unit": "Liters",
                  "system": "http://unitsofmeasure.org",
                  "code": "L"
                }
              }
            ]
          },
          {
            "code": {
              "coding": [
                {
                  "system": "http://loinc.org",
                  "code": "19852-3",
                  "display": "Inspiratory capacity by Spirometry"
                },
                {
                  "system": "https://fhir.diz.uni-marburg.de/ValueSet/lufu/ObservationCodes",
                  "code": "IC|Test"
                }
              ]
            },
            "valueQuantity": {
              "value": 2.8,
              "unit": "Liters",
              "system": "http://unitsofmeasure.org",
              "code": "L"
            },
            "interpretation": [
              {
                "coding": [
                  {
                    "system": "http://terminology.hl7.org/CodeSystem/v3-ObservationInterpretation",
                    "code": "L",
                    "display": "Low"
                  }
                ]
              }
            ],
            "referenceRange": [
              {
                "low": {
                  "value": 3.1003,
                  "unit": "Liters",
                  "system": "http://unitsofmeasure.org",
                  "code": "L"
                },
                "high": {
                  "value": 4.2311,
                  "unit": "Liters",
                  "system": "http://unitsofmeasure.org",
                  "code": "L"
                }
              }
            ]
          },
          {
            "code": {
              "coding": [
                {
                  "system": "http://loinc.org",
                  "code": "20152-5",
                  "display": "FEV1 measured/predicted"
                },
                {
                  "system": "https://fhir.diz.uni-marburg.de/ValueSet/lufu/ObservationCodes",
                  "code": "FEV 1 %PRED|Test"
                }
              ]
            },
            "valueQuantity": {
              "value": 2.8,
              "unit": "Percent",
              "system": "http://unitsofmeasure.org",
              "code": "%"
            },
            "interpretation": [
              {
                "coding": [
                  {
                    "system": "http://terminology.hl7.org/CodeSystem/v3-ObservationInterpretation",
                    "code": "L",
                    "display": "Low"
                  }
                ]
              }
            ],
            "referenceRange": [
              {
                "low": {
                  "value": 3.1003,
                  "unit": "Percent",
                  "system": "http://unitsofmeasure.org",
                  "code": "%"
                },
                "high": {
                  "value": 4.2311,
                  "unit": "Percent",
                  "system": "http://unitsofmeasure.org",
                  "code": "%"
                }
              }
            ]
          },
          {
            "code": {
              "coding": [
                {
                  "system": "http://loinc.org",
                  "code": "19872-1",
                  "display": "FVC measured/predicted"
                },
                {
                  "system": "https://fhir.diz.uni-marburg.de/ValueSet/lufu/ObservationCodes",
                  "code": "FVC %PRED|Test"
                }
              ]
            },
            "valueQuantity": {
              "value": 2.8,
              "unit": "Percent",
              "system": "http://unitsofmeasure.org",
              "code": "%"
            },
            "interpretation": [
              {
                "coding": [
                  {
                    "system": "http://terminology.hl7.org/CodeSystem/v3-ObservationInterpretation",
                    "code": "L",
                    "display": "Low"
                  }
                ]
              }
            ],
            "referenceRange": [
              {
                "low": {
                  "value": 3.1003,
                  "unit": "Percent",
                  "system": "http://unitsofmeasure.org",
                  "code": "%"
                },
                "high": {
                  "value": 4.2311,
                  "unit": "Percent",
                  "system": "http://unitsofmeasure.org",
                  "code": "%"
                }
              }
            ]
          }
        ]
      }
    }
  ]
}
